Folder: pypi-mirror-88/packages/xraylarch/xraylarch-0.9.50.tar.gz/xraylarch-0.9.50/examples/xafsdata

Note: README.md
# PyPI code 88

This repo contains 40000 packages uploaded to PyPI between 
2020-12-08 22:40 and 2020-12-18 01:44.

The repo is 39% (15994/40000) complete.

## Packages:

| Name  | Count |
| ----- | ----- |
| advent-of-code | 552 |
| tfa-nightly | 152 |
| bapy | 114 |
| rapidfuzz | 112 |
| sailboat | 90 |
| python-libcombine | 84 |
| tensorflow-io-nightly | 81 |
| cmarkgfm | 81 |
| pyagrum-nightly | 78 |
| pyfastx | 65 |
| chiavdf | 65 |
| pyinsertfile | 64 |
| robinhood-commons | 63 |
| OpenGeode-core | 63 |
| dependency-injector | 56 |
| clickhouse-driver | 56 |
| debugpy | 54 |
| smoldyn | 52 |
| mapbuffer | 52 |
| pybluemonday | 51 |
| bigbird | 51 |
| trdb2py | 50 |
| pyats.log | 48 |
| parallelworkloads | 48 |
| lusid-sdk-preview | 48 |

File: cu_romanglass.xdi
# XDI/1.0  GSE/1.0
# Column.1: energy eV
# Column.2: mufluor
# Column.3: mutrans
# Column.4: ifluor # deadtime-corrected
# Column.5: ifluor_raw # not deadtime-corrected
# Column.6: i0
# Column.7: itrans
# Column.8: irefer
# Column.9: counttime sec
# Beamline.fluxestimate: 1.057e+11  ||  13XRM:ION:FluxOut.VAL
# Beamline.foe_slit_hpos: 0.5000  ||  13IDA:m5.VAL
# Beamline.foe_slit_hwid: 1.0000  ||  13IDA:m6.VAL
# Beamline.foe_slit_vpos: -0.2001  ||  13IDA:m7.VAL
# Beamline.foe_slit_vwid: 0.3000  ||  13IDA:m8.VAL
# Beamline.i0_sensitivity_number: 10  ||  13IDE:A1sens_num.VAL
# Beamline.i0_sensitivity_unit: nA/V  ||  13IDE:A1sens_unit.VAL
# Beamline.i1_sensitivity_number: 500  ||  13IDE:A2sens_num.VAL
# Beamline.i1_sensitivity_unit: nA/V  ||  13IDE:A2sens_unit.VAL
# Beamline.i2_sensitivity_number: 50  ||  13IDE:A3sens_num.VAL
# Beamline.i2_sensitivity_unit: pA/V  ||  13IDE:A3sens_unit.VAL
# Beamline.ssa_slit_hpos: 0  ||  13IDA:m69.VAL
# Beamline.ssa_slit_hwid: 0.0500  ||  13IDA:m70.VAL
# Beamline.ssa_slit_vpos: 1.1000  ||  13IDA:m71.VAL
# Beamline.ssa_slit_vwid: 0.3500  ||  13IDA:m72.VAL
# Beamline.name: 13-ID-E, GSECARS
# Facility.ring_current: 102.2  ||  S:SRcurrentAI.VAL
# Facility.ring_lifetime: 11.0  ||  S:SRlifeTimeHrsCC.VAL
# Facility.name: APS
# Facility.xray_source: 3.6 cm undulator
# Monochromator.dspacing: 3.13477  ||  13IDE:En:dspace.VAL
# Monochromator.energy: 9499.5  ||  13IDE:En:Energy.VAL
# Monochromator.height: 26.10000  ||  13IDE:En:height.VAL
# Monochromator.theta_offset: 17.54811  ||  13IDA:m65.OFF
# Monochromator.xtal2_pitch: -0.1140  ||  13IDA:m67.VAL
# Monochromator.xtal2_rol: 1.0200  ||  13IDA:m68.VAL
# Monochromator.xtal2_y: 13.3423  ||  13IDA:m66.VAL
# Monochromator.xtal2_y_off: 11.6000  ||  13IDA:m66.OFF
# Monochromator.name: Si(111), LN2 cooled
# Undulator.energy: 9.455  ||  ID13us:Energy.VAL
# Detectors.i0: 20cm ion chamber, He
# Detectors.ifluor: Si SDD Vortex ME-4, 4 elements
# Detectors.ifluor_electronics: Quantum Xspress3 3.1.10
# Detectorstage.x: 3000.0  ||  13IDE:m34.VAL
# Detectorstage.y: 71.401  ||  13IDE:m4.VAL
# Detectorstage.z: 55.0000  ||  13IDE:m19.VAL
# Samplestage.coarsex: 42.4458  ||  13XRM:m4.VAL
# Samplestage.coarsey: 17.9090  ||  13XRM:m5.VAL
# Samplestage.coarsez: 216.3153  ||  13XRM:m6.VAL
# Samplestage.finex: 0  ||  13XRM:m1.VAL
# Samplestage.finey: 0  ||  13XRM:m2.VAL
# Samplestage.theta: 0  ||  13XRM:m3.VAL
# Scan.end_time: 2017-06-23 05:43:10
# Scan.start_time: 2017-06-23 05:35:13
# Scanparameters.e0: 8979.000
# Scanparameters.edge: K
# Scanparameters.element: Cu
# Scanparameters.legend: Start, Stop, Step, K-space, Time
# Scanparameters.region1: -50.000,   -10.000,     2.000  False  1.00
# Scanparameters.region2: -10.000,    19.997,     0.100  False  1.00
# Scanparameters.region3: 2.291,    10.000,     0.050  True  1.00
# Scanparameters.scantype: xafs
# ///
# summed cu_ka fluorescence data from CuXAFS_GlassGT1_C.001
# Dead-time correction applied
#------------------------------------------------------------------------------
#     energy       mufluor       mutrans        ifluor    ifluor_raw            i0        itrans        irefer     counttime
   8928.64     0.5583660     4.10072      46562.14         44634         83390          1381        305421      0.999977
   8939.99     0.5818836     4.09814      48994.01         46943         84199          1398        305713     0.9999783
   8952     0.6149536     4.08795      51693.62         49522         84061          1410        305865     0.9999737
   8964     0.6955459     4.0784      58281.88         55828         83793          1419        306201     0.9999748
   8969.35     0.7772707     4.07543      64845.36         62114         83427          1417        305645     0.9999772
   8969.96     0.7893686     4.07919      66102.52         63309         83741          1417        306044     0.9999783
   8970.56     0.8094066     4.08712      68754.23         65803         84944          1426        305770      0.999977
   8971.15     0.8187262     4.08527      69222.48         66266         84549          1422        306059     0.9999748
   8971.74     0.8318670     4.08537      70242.02         67240         84439          1420        305988     0.9999792
   8972.35     0.8541300     4.0685      70065.99         67149         82032          1403        305420     0.9999745
   8972.95     0.8813521     4.07424      73182.19         70098         83034          1412        305665     0.9999748
   8973.55     0.9011875     4.09137      76607.24         73296         85007          1421        305471     0.9999847
   8974.15     0.9294939     4.10136      80480.23         76936         86585          1433        306133     0.9999769
   8974.75     0.9578866     4.09654      82251.81         78659         85868          1428        305937     0.9999701
   8975.36     1.00118     4.10359      86699.42         82871         86597          1430        306288     0.9999759
   8975.95     1.05047     4.10232      91105.91         87064         86729          1434        305772      0.999971
   8976.55     1.11305     4.10572      96727.21         92420         86903          1432        306395     0.9999813
   8977.16     1.19323     4.10768        103971         99303         87134          1433        306207     0.9999778
   8977.75     1.33071     4.10471      115606.8        110395         86876          1433        306335      0.999986
   8978.35     1.47202     4.10808      127956.9        122149         86926          1429        306076      0.999974
   8978.94     1.58666     4.10093        136269        130121         85884          1422        305882     0.9999782
   8979.56     1.71884     4.10588      149083.7        142253         86735          1429        305692     0.9999694
   8980.17     1.94438     4.10769      167887.6        160147         86345          1420        306265      0.999968
   8980.76     2.42115     4.10828        209766        199839         86639          1424        305893     0.9999778
   8981.35     3.19071     4.10512      274212.5        260865         85941          1417        305820     0.9999806
   8981.94     4.33579     4.11278      375488.2        356140         86602          1417        305922     0.9999716
   8982.54     6.22653     4.08605      516484.6        488838         82949          1394        304969     0.9999771
   8983.16     8.78129     4.08639      719240.4        677291         81906          1376        305486     0.9999788
   8983.76    11.127     4.08766      907889.1        850250         81593          1369        305382     0.9999758
   8984.36    11.8343     4.08776      964979.4        902284         81541          1368        305454      0.999977
   8984.95    10.9211     4.08413      884049.9        828818         80949          1363        305060     0.9999781
   8985.55    10.3375     4.08119        836193        785091         80889          1366        305084     0.9999763
   8986.15    10.1093     4.07974      817147.4        767689         80831          1367        305160     0.9999851
   8986.75    10.2272     4.08151      826313.1        776115         80796          1364        305128     0.9999758
   8987.35    10.5856     4.07822      858093.7        805103         81062          1373        305229     0.9999776
   8987.96    10.8289     4.08095      875084.6        820723         80810          1365        305192     0.9999775
   8988.56    11.1765     4.08336      904034.3        847123         80887          1363        305256     0.9999733
   8989.15    11.7409     4.07587      947435.3        886688         80695          1370        305623      0.999979
   8989.74    12.1494     4.09731       1008230        940643         82986          1379        305954     0.9999775
   8990.35    12.6818     4.11225       1072118        997500         84540          1384        306043     0.9999752
   8990.95    13.4859     4.11215       1150699       1067650         85326          1397        306117      0.999983
   8991.54    14.3352     4.11129       1211612       1122319         84520          1385        305619     0.9999793
   8992.14    15.4297     4.11194       1294598       1196581         83903          1374        306092      0.999976
   8992.76    16.5456     4.11777       1392281       1282651         84148          1370        305955     0.9999778
   8993.35    17.4611     4.11833       1466921       1348348         84011          1367        305687      0.999969
   8993.94    18.1584     4.12333       1532021       1404764         84370          1366        305620     0.9999779
   8994.55    18.7308     4.11213       1556995       1427477         83125          1361        305407     0.9999829
   8995.15    19.2208     4.11545       1595980       1461335         83034          1355        305358     0.9999786
   8995.76    19.5641     4.11765       1630475       1490993         83340          1357        306011      0.999977
   8996.35    19.7603     4.1166       1645087       1503662         83252          1357        306072     0.9999823
   8996.94    19.8962     4.11742       1655328       1512855         83198          1355        306279     0.9999778
   8997.54    19.9332     4.11815       1657163       1514170         83136          1353        305908     0.9999831
   8998.15    19.94     4.10871       1639726       1499845         82233          1351        305684     0.9999776
   8998.76    19.9889     4.11391       1648645       1507509         82478          1348        305599     0.9999776
   9002.2    19.7341     4.10407       1615274       1479237         81852          1351        305981       0.99998
   9008.23    18.0816     4.1106       1515073       1390497         83791          1374        306593     0.9999711
   9014.96    16.9806     4.11969       1454624       1336007         85664          1392        306820     0.9999773
   9022.38    16.2763     4.11295       1393883       1282534         85639          1401        306856     0.9999747
   9030.51    16.2482     4.10227       1379632       1270396         84910          1404        307085     0.9999759
   9039.34    17.0244     4.08984       1420569       1307583         83443          1397        306983     0.9999767
   9048.85    17.9535     4.06977       1465187       1347716         81610          1394        307005     0.9999751
   9059.05    18.3529     4.05524       1485704       1366194         80952          1403        306812     0.9999766
   9069.95    18.2803     4.03953       1450520       1336350         79349          1397        306671     0.9999755
   9081.56    17.8969     4.03815       1434381       1321669         80147          1413        306695     0.9999839
   9093.87    17.6595     4.02616       1407388       1298011         79696          1422        307029     0.9999755
   9106.86    17.748     4.00807       1400814       1292496         78928          1434        307537       0.99997
   9120.56    17.9961     3.99226       1409815       1301056         78340          1446        307167     0.9999739
   9134.94    18.1516     3.98658       1426661       1315380         78597          1459        308021     0.9999781
   9150.02    18.3274     3.9576       1411793       1303256         77032          1472        308223     0.9999662
   9165.8    18.4093     3.94438       1404242       1296902         76279          1477        308461     0.9999765
   9182.29    18.2362     3.94897       1411625       1302567         77408          1492        308231     0.9999854
   9199.46    18.1932     3.9231       1391655       1285386         76493          1513        308606     0.9999773
   9217.32    18.2702     3.89848       1377060       1273335         75372          1528        309035      0.999976
   9235.9    18.3276     3.87918       1361194       1259730         74270          1535        309723      0.999974
   9255.16    18.4214     3.8528       1356843       1256148         73656          1563        310166     0.9999787
   9275.12    18.5149     3.83133       1346716       1247799         72737          1577        310298     0.9999785
   9295.77    18.54     3.80193       1304494       1211554         70361          1571        310485      0.999971
   9317.13    18.6152     3.74981       1259097       1172962         67638          1591        310445      0.999976
   9339.18    18.6871     3.71742       1232134       1149719         65935          1602        310684     0.9999781
   9354.27    18.7252     3.70058       1215548       1135470         64915          1604        310966     0.9999721